File: Data_Raw_Pitch_Angles 8 to 90.csv
8 degree,,,15 degree,,,45 degree,,,90 degree,,
Extension (mm),Load (N),N.mm,Extension (mm),Load (N),N.mm,Extension (mm),Load (N),N.mm,Extension (mm),Load (N),N.mm
0.00031,2.4,0.00096,0.00002,4.17,0.001668,0.00085,4.95,0.00198,0.00086,4.88,0.001952
0.00111,2.98,0.001192,0.00082,4.61,0.001844,0.00165,5.44,0.002176,0.00176,5.86,0.002344
0.00191,3.71,0.001484,0.00162,5.26,0.002104,0.00245,6.2,0.00248,0.00266,6.75,0.0027
0.00271,4.37,0.001748,0.00242,5.82,0.002328,0.00335,6.68,0.002672,0.00346,7.85,0.00314
0.00351,4.87,0.001948,0.00322,6.49,0.002596,0.00415,7.49,0.002996,0.00426,8.73,0.003492
0.00431,5.67,0.002268,0.00402,6.97,0.002788,0.00505,8.33,0.003332,0.00506,9.81,0.003924
0.00521,6.49,0.002596,0.00482,7.77,0.003108,0.00595,9.03,0.004515,0.00586,10.75,0.0043
0.00601,7.02,0.002808,0.00562,8.54,0.003416,0.00685,9.76,0.003904,0.00666,11.65,0.00466
0.00681,7.8,0.00312,0.00642,9.21,0.003684,0.00775,10.64,0.004256,0.00746,12.65,0.00506
0.00751,8.49,0.004245,0.00732,9.92,0.003968,0.00865,11.63,0.004652,0.00826,13.79,0.005516
0.00841,9.34,0.003736,0.00812,10.69,0.004276,0.00945,12.2,0.00488,0.00906,14.82,0.005928
0.00931,10.13,0.005065,0.00892,11.4,0.0057,0.01025,13.13,0.005252,0.00986,16.04,0.006416
0.01021,11.04,0.004416,0.00982,12.35,0.006175,0.01105,13.98,0.005592,0.01066,17.05,0.00682
0.01111,12.06,0.004824,0.01072,13.06,0.005224,0.01185,14.89,0.005956,0.01146,18.26,0.00913
0.01191,12.75,0.006375,0.01162,13.75,0.0055,0.01265,15.52,0.006208,0.01236,19.54,0.007816
0.01281,13.78,0.005512,0.01252,14.62,0.005848,0.01345,16.63,0.006652,0.01316,20.63,0.008252
0.01361,14.61,0.007305,0.01342,15.46,0.006184,0.01425,17.44,0.006976,0.01396,21.83,0.008732
0.01451,15.47,0.006188,0.01422,16.18,0.006472,0.01505,18.32,0.007328,0.01486,23.25,0.0093
0.01531,16.18,0.006472,0.01502,16.98,0.00849,0.01585,19.1,0.00764,0.01566,24.64,0.01232
0.01611,17.24,0.006896,0.01592,17.65,0.005295,0.01665,20.12,0.008048,0.01656,25.97,0.010388
0.01691,17.98,0.007192,0.01662,18.44,0.00922,0.01745,20.95,0.00838,0.01736,27.24,0.01362
0.01771,18.73,0.007492,0.01752,19.21,0.007684,0.01825,21.89,0.008756,0.01826,28.83,0.014415
0.01851,19.77,0.007908,0.01832,19.93,0.007972,0.01915,22.68,0.009072,0.01926,30.25,0.0121
0.01941,20.49,0.008196,0.01912,20.68,0.008272,0.01995,23.63,0.009452,0.02006,31.53,0.012612
0.02021,21.3,0.00852,0.01992,21.56,0.008624,0.02085,24.67,0.009868,0.02096,32.72,0.013088
0.02101,22.29,0.008916,0.02072,22.33,0.008932,0.02165,25.64,0.01282,0.02176,33.95,0.01358
0.02181,23.12,0.009248,0.02152,23.05,0.00922,0.02255,26.44,0.01322,0.02246,35.3,0.01765
0.02261,24.09,0.009636,0.02242,24.08,0.009632,0.02345,27.54,0.011016,0.02336,36.54,0.010962
0.02341,24.96,0.009984,0.02322,24.82,0.009928,0.02435,28.53,0.011412,0.02406,37.69,0.015076
0.02421,25.76,0.01288,0.02402,25.47,0.010188,0.02515,29.4,0.0147,0.02496,39.08,0.011724
0.02511,26.71,0.010684,0.02482,26.32,0.010528,0.02605,30.38,0.012152,0.02566,40.42,0.016168
0.02601,27.61,0.011044,0.02572,27.2,0.01088,0.02685,31.31,0.012524,0.02646,41.5,0.0166
0.02681,28.68,0.01434,0.02652,28.21,0.011284,0.02765,32.23,0.012892,0.02736,42.9,0.01287
0.02771,29.55,0.01182,0.02742,29.07,0.011628,0.02845,33.11,0.013244,0.02816,44.2,0.01768
0.02861,30.58,0.012232,0.02822,29.85,0.01194,0.02925,33.75,0.0135,0.02896,45.31,0.018124
0.02941,31.61,0.015805,0.02902,30.7,0.01535,0.03005,34.91,0.013964,0.02976,46.75,0.0187
0.03031,32.28,0.012912,0.02992,31.58,0.012632,0.03085,35.83,0.014332,0.03056,47.85,0.01914
0.03121,33.39,0.013356,0.03082,32.6,0.01304,0.03165,36.54,0.014616,0.03146,49.29,0.019716
0.03201,33.33,0.013332,0.03172,33.52,0.013408,0.03245,37.44,0.014976,0.03226,50.54,0.02527
0.03281,33.92,0.013568,0.03252,34.39,0.013756,0.03325,38.54,0.015416,0.03316,51.91,0.020764
0.03361,34.69,0.013876,0.03332,35.15,0.01406,0.03405,39.39,0.015756,0.03406,53.22,0.021288
0.03441,35.42,0.014168,0.03412,35.85,0.01434,0.03485,40.53,0.020265,0.03496,54.51,0.021804
0.03521,36.36,0.014544,0.03492,36.85,0.01474,0.03575,41.45,0.01658,0.03586,55.87,0.022348
0.03601,37.21,0.014884,0.03572,37.59,0.015036,0.03655,42.32,0.016928,0.03666,57.16,0.02858
0.03681,37.88,0.015152,0.03652,38.4,0.01536,0.03745,43.4,0.01736,0.03756,58.4,0.02336
0.03761,38.82,0.015528,0.03732,39.36,0.01968,0.03825,44.64,0.017856,0.03836,59.53,0.023812
0.03841,39.6,0.01584,0.03822,40.27,0.016108,0.03915,45.41,0.018164,0.03916,60.59,0.024236
0.03921,40.66,0.02033,0.03902,40.95,0.012285,0.04005,46.42,0.018568,0.03996,61.8,0.02472
0.04011,41.28,0.016512,0.03982,42.02,0.016808,0.04095,47.54,0.019016,0.04076,63.05,0.02522
0.04091,42.09,0.016836,0.04062,42.86,0.017144,0.04185,48.47,0.019388,0.04156,63.96,0.025584
0.04171,42.73,0.017092,0.04142,43.72,0.017488,0.04265,49.6,0.01984,0.04236,65.33,0.026132
0.04261,43.39,0.017356,0.04222,44.73,0.022365,0.04345,50.42,0.020168,0.04316,66.47,0.019941
0.04341,44.09,0.022045,0.04312,45.48,0.018192,0.04435,51.23,0.020492,0.04396,67.43,0.026972
0.04431,43.82,0.02191,0.04402,46.54,0.018616,0.04515,52.08,0.020832,0.04476,68.64,0.027456
0.04521,37.66,0.01883,0.04482,47.51,0.019004,0.04595,53.04,0.021216,0.04556,69.84,0.027936
0.04611,38.06,0.015224,0.04562,48.28,0.028968,0.04675,54.13,0.021652,0.04636,71.11,0.028444
0.04701,38.95,0.01558,0.04662,49.36,0.019744,0.04755,54.82,0.021928,0.04716,72.39,0.028956
0.04781,40.1,0.01604,0.04742,50.29,0.025145,0.04835,55.62,0.022248,0.04796,73.48,0.029392
0.04861,40.91,0.016364,0.04832,51.26,0.02563,0.04915,56.64,0.022656,0.04886,74.89,0.029956
0.04941,41.91,0.016764,0.04922,51.96,0.015588,0.04995,57.44,0.022976,0.04966,76.1,0.03044
0.05021,42.7,0.01708,0.05002,52.94,0.021176,0.05075,58.42,0.023368,0.05056,77.24,0.030896
0.05101,43.42,0.017368,0.05082,53.53,0.021412,0.05165,59.36,0.023744,0.05136,78.69,0.039345
0.05181,44.34,0.017736,0.05162,54.37,0.021748,0.05245,60.23,0.024092,0.05226,80.02,0.04001
0.05261,45.07,0.018028,0.05232,55.2,0.0276,0.05325,61.13,0.024452,0.05316,81.29,0.040645
0.05341,46.02,0.018408,0.05312,55.83,0.027915,0.05415,62.14,0.024856,0.05406,82.54,0.033016
0.05421,46.8,0.01872,0.05402,56.54,0.022616,0.05495,63.15,0.031575,0.05486,83.52,0.033408
0.05511,47.42,0.018968,0.05482,57.36,0.022944,0.05585,64.08,0.03204,0.05566,84.88,0.033952
0.05591,48.13,0.019252,0.05562,58.17,0.023268,0.05675,64.95,0.032475,0.05646,86.14,0.034456
0.05671,48.65,0.01946,0.05642,58.96,0.023584,0.05765,66.07,0.026428,0.05726,87.26,0.034904
0.05751,49.28,0.019712,0.05722,59.66,0.023864,0.05855,66.9,0.02676,0.05806,88.37,0.035348
0.05831,50.13,0.025065,0.05802,60.5,0.0242,0.05945,67.78,0.027112,0.05886,89.71,0.035884
0.05921,50.94,0.020376,0.05892,61.24,0.024496,0.06025,68.65,0.02746,0.05966,90.72,0.036288
0.06011,51.59,0.020636,0.05972,61.83,0.024732,0.06105,69.72,0.027888,0.06046,91.92,0.036768
0.06101,52.47,0.020988,0.06052,62.54,0.025016,0.06185,70.6,0.02824,0.06126,92.72,0.037088
0.06181,53.24,0.02662,0.06142,63.47,0.025388,0.06265,71.31,0.028524,0.06206,93.94,0.037576
0.06281,54.08,0.021632,0.06222,64.2,0.0321,0.06345,72.19,0.028876,0.06286,95.03,0.038012
0.06361,54.88,0.02744,0.06322,65.12,0.03256,0.06425,73.03,0.029212,0.06366,95.88,0.038352
0.06451,55.61,0.022244,0.06412,65.88,0.026352,0.06505,74.07,0.029628,0.06446,97.09,0.048545
0.06541,56.21,0.022484,0.06492,66.5,0.0266,0.06585,75.01,0.030004,0.06536,97.65,0.03906
0.06621,56.92,0.022768,0.06582,67.3,0.02692,0.06665,75.69,0.030276,0.06616,98.54,0.04927
0.06701,57.75,0.017325,0.06662,68.05,0.02722,0.06755,76.61,0.030644,0.06706,99.48,0.039792
0.06771,58.33,0.023332,0.06742,68.48,0.027392,0.06835,77.56,0.031024,0.06796,100.2,0.04008
0.06851,59.05,0.02362,0.06832,69.3,0.02772,0.06915,78.42,0.031368,0.06886,101.32,0.040528
0.06931,59.87,0.023948,0.06912,70.05,0.02802,0.06995,79.35,0.03174,0.06976,102.18,0.040872
0.07011,60.37,0.024148,0.06992,70.69,0.021207,0.07085,80.47,0.032188,0.07056,102.91,0.041164
0.07091,61.21,0.030605,0.07072,71.38,0.028552,0.07165,81.38,0.032552,0.07136,101.1,0.05055
0.07181,62.22,0.024888,0.07152,72.36,0.028944,0.07255,82.29,0.032916,0.07226,102.39,0.040956
0.07261,62.81,0.025124,0.07222,72.81,0.036405,0.07335,83.2,0.0416,0.07306,103.64,0.041456
0.07341,63.5,0.0254,0.07312,73.51,0.036755,0.07425,84.26,0.04213,0.07386,104.71,0.041884
0.07421,64.22,0.025688,0.07402,74.33,0.029732,0.07515,85.34,0.04267,0.07466,105.68,0.042272
0.07501,64.91,0.025964,0.07482,75.1,0.03004,0.07605,86.09,0.034436,0.07546,106.99,0.042796
0.07591,65.4,0.02616,0.07562,75.64,0.030256,0.07685,87.07,0.043535,0.07626,107.25,0.0429
0.07671,66.08,0.03304,0.07652,76.44,0.030576,0.07775,87.78,0.035112,0.07706,108.04,0.043216
0.07761,66.5,0.03325,0.07732,76.98,0.03849,0.07855,88.51,0.035404,0.07786,108.87,0.043548
0.07851,67.36,0.026944,0.07822,77.99,0.038995,0.07935,89.3,0.03572,0.07866,110.12,0.05506
0.07941,67.7,0.02708,0.07912,78.84,0.03942,0.08015,90.1,0.03604,0.07956,111.67,0.044668
0.08021,68.5,0.03425,0.08002,79.52,0.031808,0.08095,90.61,0.027183,0.08026,112.37,0.044948
0.08111,69.21,0.027684,0.08082,80.46,0.04023,0.08175,91.27,0.036508,0.08096,113.1,0.04524
0.08191,68.41,0.034205,0.08172,81.2,0.0406,0.08255,91.73,0.036692,0.08186,114.57,0.045828
0.08281,68.87,0.027548,0.08262,81.7,0.03268,0.08335,91.96,0.036784,0.08266,115.53,0.057765
0.08361,69.52,0.027808,0.08342,82.52,0.033008,0.08415,92.12,0.036848,0.08366,116.61,0.046644
0.08441,70.22,0.028088,0.08422,83.16,0.033264,0.08495,92.03,0.036812,0.08456,117.59,0.047036
0.08521,70.89,0.028356,0.08502,84,0.042,0.08575,92.43,0.036972,0.08536,118.64,0.05932
0.08601,71.49,0.028596,0.08582,84.53,0.033812,0.08665,92.98,0.037192,0.08626,119.95,0.059975
0.08681,72.22,0.028888,0.08662,85.33,0.034132,0.08745,93.53,0.037412,0.08716,120.83,0.048332
0.08761,72.65,0.02906,0.08742,85.91,0.034364,0.08825,94.15,0.03766,0.08796,120.67,0.048268
0.08841,73.6,0.0368,0.08822,86.78,0.04339,0.08905,94.76,0.04738,0.08886,121.66,0.048664
0.08921,74.1,0.03705,0.08912,87.28,0.034912,0.08995,95.43,0.047715,0.08966,122.77,0.049108
0.09011,74.53,0.029812,0.08992,88.2,0.03528,0.09085,96.21,0.038484,0.09046,123.54,0.037062
0.09091,75.04,0.030016,0.09072,88.96,0.035584,0.09185,97.5,0.039,0.09116,124.28,0.06214
0.09181,75.01,0.030004,0.09152,89.74,0.04487,0.09265,97.92,0.039168,0.09196,124.69,0.049876
0.09261,75.53,0.030212,0.09242,90.42,0.036168,0.09345,98.34,0.039336,0.09276,125.72,0.050288
0.09341,75.98,0.030392,0.09322,91.05,0.03642,0.09425,98.81,0.039524,0.09356,126.53,0.050612
0.09431,76.53,0.030612,0.09402,91.91,0.045955,0.09505,98.88,0.039552,0.09436,127.5,0.051
0.09521,76.88,0.030752,0.09492,92.6,0.03704,0.09585,99.02,0.039608,0.09516,128.46,0.06423
0.09611,77.31,0.030924,0.09582,93.3,0.03732,0.09665,99.24,0.039696,0.09606,129.61,0.051844
0.09691,77.26,0.03863,0.09672,93.97,0.046985,0.09745,99.58,0.039832,0.09686,130.69,0.052276
0.09781,76.92,0.030768,0.09762,88.26,0.035304,0.09825,100.07,0.040028,0.09776,131.59,0.052636
0.09861,77.03,0.038515,0.09842,89.02,0.035608,0.09905,100.36,0.040144,0.09856,132.77,0.053108
0.09951,77.48,0.030992,0.09932,89.93,0.035972,0.09985,101.01,0.040404,0.09936,133.72,0.053488
0.10031,77.95,0.03118,0.10022,91.04,0.036416,0.10065,101.46,0.05073,0.10016,134.65,0.067325
0.10111,78.6,0.03144,0.10092,91.88,0.036752,0.10145,101.99,0.040796,0.10106,135.98,0.06799
0.10191,79.06,0.031624,0.10182,92.91,0.037164,0.10235,102.56,0.041024,0.10196,136.9,0.06845
0.10271,79.57,0.031828,0.10262,93.85,0.03754,0.10315,103.09,0.041236,0.10286,137.65,0.05506
0.10351,80.21,0.032084,0.10342,94.66,0.037864,0.10395,103.73,0.041492,0.10376,138.23,0.055292
0.10431,80.73,0.032292,0.10422,95.5,0.0382,0.10485,104.39,0.041756,0.10466,139.16,0.055664
0.10511,81.35,0.03254,0.10502,96.32,0.038528,0.10565,104.97,0.052485,0.10546,139.94,0.055976
0.10591,81.99,0.032796,0.10582,96.66,0.038664,0.10655,105.53,0.052765,0.10626,140.97,0.056388
0.10671,82.52,0.04126,0.10662,97.54,0.04877,0.10745,105.87,0.042348,0.10706,141.69,0.056676
0.10761,83.27,0.033308,0.10752,98.35,0.03934,0.10825,106.12,0.05306,0.10786,142.22,0.056888
0.10841,83.79,0.033516,0.10832,99.02,0.039608,0.10915,106.2,0.04248,0.10866,142.83,0.057132
0.10921,84.29,0.033716,0.10912,99.71,0.039884,0.11005,105.94,0.042376,0.10946,143.49,0.057396
0.11001,84.77,0.042385,0.10992,100.22,0.05011,0.11085,105.16,0.042064,0.11026,144.23,0.057692
0.11091,85.28,0.04264,0.11082,101.25,0.0405,0.11165,102.15,0.04086,0.11106,144.93,0.057972
0.11181,85.85,0.03434,0.11162,101.93,0.050965,0.11255,100.88,0.030264,0.11186,145.81,0.058324
0.11261,86.23,0.043115,0.11252,102.76,0.041104,0.11335,96.02,0.038408,0.11276,146.45,0.05858
0.11351,86.08,0.04304,0.11342,103.65,0.04146,0.11415,92.13,0.036852,0.11346,146.56,0.07328
0.11441,85.53,0.034212,0.11432,104.54,0.05227,0.11485,89.25,0.044625,0.11436,147.08,0.044124
0.11531,85.17,0.034068,0.11522,105.26,0.042104,0.11575,88.56,0.035424,0.11516,147.2,0.05888
0.11611,84.69,0.033876,0.11602,105.93,0.042372,0.11655,88.13,0.035252,0.11606,147.42,0.058968
0.11701,81.28,0.032512,0.11692,106.75,0.032025,0.11735,87.58,0.035032,0.11696,147.71,0.059084
0.11781,80.63,0.032252,0.11762,107.46,0.042984,0.11815,87.02,0.034808,0.11776,147.65,0.05906
0.11861,80.94,0.032376,0.11852,108.18,0.043272,0.11895,83.93,0.033572,0.11866,147.6,0.05904
0.11941,81.4,0.03256,0.11922,108.16,0.043264,0.11975,82.53,0.033012,0.11956,148.17,0.059268
0.12021,82.53,0.033012,0.12002,108.74,0.043496,0.12065,81.55,0.03262,0.12046,148.35,0.05934
0.12101,83.28,0.033312,0.12082,109.15,0.04366,0.12145,80.42,0.032168,0.12136,100.22,0.040088
0.12181,83.94,0.033576,0.12162,109.86,0.043944,0.12225,77.87,0.038935,0.12216,96.9,0.03876
0.12261,84.77,0.033908,0.12242,110.59,0.044236,0.12315,73.95,0.036975,0.12296,95.85,0.03834
0.12341,85.7,0.03428,0.12322,111.41,0.044564,0.12405,30.85,0.015425,0.12386,94.87,0.037948
0.12431,86.37,0.034548,0.12402,112.12,0.05606,0.12495,16.6,0.00664,0.12466,94.16,0.037664
0.12511,87.01,0.034804,0.12492,112.78,0.045112,0.12585,15.7,0.00628,0.12536,93.8,0.03752
0.12591,87.75,0.0351,0.12572,113.47,0.045388,0.12675,14.81,0.005924,0.12626,93.92,0.037568
0.12671,88.53,0.044265,0.12652,114.19,0.045676,0.12755,14.29,0.005716,0.12706,93.85,0.03754
0.12761,88.99,0.035596,0.12742,114.39,0.045756,0.12845,13.87,0.005548,0.12786,93.68,0.037472
0.12841,89.52,0.04476,0.12822,114.66,0.045864,0.12925,13.61,0.005444,0.12866,93.53,0.037412
0.12931,90.49,0.045245,0.12912,112.65,0.04506,0.13005,13.14,0.005256,0.12946,91.52,0.036608
0.13021,91.11,0.036444,0.13002,107.04,0.042816,0.13085,13.02,0.005208,0.13026,89.69,0.035876
0.13101,91.13,0.045565,0.13082,106.69,0.053345,0.13165,12.4,0.00496,0.13116,88.58,0.026574
0.13191,91.88,0.036752,0.13172,107.13,0.042852,0.13245,12.15,0.00486,0.13196,2.49,0.001245
0.13281,92.51,0.037004,0.13262,107.89,0.043156,0.13325,12.05,0.00482,0.13286,8.82,0.003528
0.13361,92.99,0.037196,0.13342,108.56,0.043424,0.13405,11.77,0.004708,0.13366,8.37,0.003348
0.13441,93.61,0.037444,0.13422,109.59,0.043836,0.13485,11.55,0.00462,0.13456,8.07,0.004035
0.13521,94.58,0.037832,0.13512,110.57,0.044228,0.13565,11.12,0.004448,0.13546,7.71,0.002313
0.13601,94.82,0.037928,0.13582,111.36,0.044544,0.13645,10.96,0.00548,0.13626,7.55,0.003775
0.13681,95.7,0.03828,0.13662,112.1,0.04484,0.13735,10.88,0.004352,0.13726,7.33,0.002932
0.13761,96.28,0.038512,0.13742,112.95,0.04518,0.13815,10.57,0.004228,0.13806,7.16,0.002864
0.13841,96.79,0.038716,0.13822,113.72,0.05686,0.13905,10.32,0.004128,0.13896,6.96,0.002784
0.13921,97.25,0.048625,0.13902,114.47,0.057235,0.13985,10.13,0.005065,0.13976,6.84,0.002736
0.14011,97.81,0.039124,0.13982,115.12,0.05756,0.14075,9.92,0.003968,0.14056,6.71,0.002684
0.14091,98.53,0.039412,0.14072,115.9,0.04636,0.14165,9.74,0.003896,0.14136,6.57,0.002628
0.14171,99,0.0396,0.14152,116.4,0.04656,0.14255,9.66,0.003864,0.14216,6.4,0.00256
0.14251,99.57,0.039828,0.14232,117.16,0.046864,0.14345,9.28,0.00464,0.14296,6.03,0.003015
0.14331,99.9,0.04995,0.14312,117.78,0.047112,0.14425,8.64,0.003456,0.14386,5.95,0.00238
0.14421,100.47,0.040188,0.14392,118.37,0.047348,0.14515,8.15,0.00326,0.14466,5.83,0.002332
0.14501,100.65,0.050325,0.14482,118.9,0.04756,0.14595,7.96,0.003184,0.14546,5.76,0.00288
0.14591,100.88,0.05044,0.14562,119.58,0.05979,0.14675,7.8,0.00312,0.14636,5.67,0.001701
0.14681,100.94,0.05047,0.14652,120.29,0.060145,0.14755,7.64,0.003056,0.14716,5.43,0.002172
0.14771,99.68,0.039872,0.14742,120.82,0.048328,0.14835,7.29,0.002916,0.14796,5.35,0.00214
0.14861,98.25,0.0393,0.14832,121.56,0.048624,0.14915,7.28,0.002912,0.14876,5.31,0.002124
0.14941,97.54,0.039016,0.14922,122.12,0.048848,0.14995,7.09,0.002836,0.14966,5.23,0.002092
0.15021,98.07,0.049035,0.15002,122.58,0.049032,0.15075,6.93,0.002772,0.15046,5.11,0.002044
0.15101,98.43,0.039372,0.15082,123.17,0.036951,0.15155,7.01,0.002804,0.15136,4.96,0.001984
0.15191,99.39,0.039756,0.15152,123.46,0.049384,0.15235,6.57,0.002628,0.15226,4.89,0.001956
0.15271,99.81,0.039924,0.15232,124,0.0496,0.15315,6.37,0.002548,0.15306,4.8,0.0024
0.15341,100.47,0.050235,0.15322,124.71,0.049884,0.15395,6.36,0.00318,0.15406,4.62,0.001848
0.15431,101.14,0.040456,0.15402,125.33,0.050132,0.15485,6.22,0.002488,0.15486,4.51,0.001804
0.15511,101.54,0.040616,0.15482,125.72,0.050288,0.15565,6.22,0.002488,0.15576,4.69,0.001876
0.15591,102.38,0.040952,0.15562,126.13,0.050452,0.15655,6.1,0.00244,0.15666,4.52,0.001808
0.15671,102.72,0.041088,0.15642,126.53,0.050612,0.15745,6.08,0.002432,0.15746,4.46,0.001784
0.15751,103.31,0.041324,0.15722,127.07,0.050828,0.15825,5.8,0.00232,0.15826,4.38,0.001314
0.15841,103.85,0.04154,0.15802,127.52,0.051008,0.15915,5.6,0.0028,0.15906,4.24,0.001696
0.15921,104.26,0.041704,0.15882,127.99,0.051196,0.16005,5.76,0.00288,0.15986,4.23,0.001692
0.16001,104.64,0.041856,0.15962,128.46,0.051384,0.16095,5.71,0.002284,0.16066,4.04,0.001616
0.16081,105.13,0.052565,0.16042,128.88,0.051552,0.16175,5.55,0.002775,0.16146,4.12,0.001648
0.16171,105.75,0.052875,0.16122,129.49,0.064745,0.16265,5.42,0.002168,0.16226,4.09,0.001636
0.16261,106.62,0.042648,0.16212,130.14,0.06507,0.16345,5.36,0.002144,0.16306,3.99,0.001995
0.16351,107.13,0.042852,0.16302,130.71,0.052284,0.16425,5.35,0.00214,0.16406,3.84,0.001536
0.16441,107.74,0.043096,0.16392,131.31,0.052524,0.16505,5.41,0.002164,0.16486,3.78,0.001512
0.16521,108.18,0.043272,0.16472,131.87,0.065935,0.16585,5.08,0.002032,0.16566,3.56,0.001424
0.16611,108.74,0.043496,0.16562,132.55,0.066275,0.16665,5.2,0.00208,0.16646,3.64,0.001456
0.16691,109.18,0.043672,0.16652,133.24,0.053296,0.16745,5,0.002,0.16736,3.51,0.001404
0.16781,109.67,0.043868,0.16732,134.01,0.053604,0.16825,5.08,0.002032,0.16816,3.58,0.00179
0.16851,109.58,0.05479,0.16822,134.38,0.040314,0.16905,4.94,0.001976,0.16906,3.46,0.00173
0.16931,108.17,0.054085,0.16902,134.82,0.053928,0.16985,4.64,0.001856,0.16996,3.33,0.001665
0.17021,108.24,0.043296,0.16982,134.95,0.05398,0.17075,4.61,0.001844,0.17086,3.23,0.001615
0.17091,108.57,0.043428,0.17062,135.39,0.054156,0.17155,4.52,0.001808,0.17176,3.28,0.00164
0.17181,108.97,0.043588,0.17142,135.79,0.054316,0.17245,4.27,0.001708,0.17266,3.17,0.001268
0.17261,109.36,0.043744,0.17222,136.08,0.054432,0.17325,4.33,0.001732,0.17346,3.12,0.00156
0.17341,109.65,0.04386,0.17302,135.13,0.054052,0.17415,4.41,0.001764,0.17436,3,0.0012
0.17421,110.17,0.044068,0.17372,133.29,0.053316,0.17505,4.41,0.001764,0.17516,2.97,0.001188
0.17501,110.55,0.04422,0.17462,132.43,0.039729,0.17595,4.36,0.001744,0.17596,3.06,0.001224
0.17581,110.38,0.044152,0.17532,132.83,0.053132,0.17685,4.17,0.001668,0.17676,2.96,0.000888
0.17661,110.73,0.055365,0.17612,133.11,0.066555,0.17765,4.23,0.002115,0.17746,2.76,0.001104
0.17751,111.2,0.04448,0.17702,133.8,0.05352,0.17855,4.17,0.001668,0.17836,2.61,0.001044
0.17841,111.51,0.044604,0.17792,134.28,0.053712,0.17945,3.9,0.00156,0.17916,2.6,0.00078
0.17921,111.86,0.05593,0.17872,134.93,0.053972,0.18025,4.07,0.001628,0.17996,2.44,0.000976
0.18011,112.39,0.056195,0.17962,135.47,0.054188,0.18105,4.05,0.00162,0.18076,2.49,0.000996
0.18101,112.51,0.056255,0.18042,135.15,0.067575,0.18185,4.02,0.001608,0.18156,2.37,0.000948
0.18191,112.25,0.0449,0.18132,134.94,0.06747,0.18265,3.86,0.001544,0.18236,2.35,0.00094
0.18281,112.28,0.044912,0.18222,132.84,0.053136,0.18345,3.82,0.001528,0.18316,2.36,0.000944
0.18361,112.75,0.056375,0.18312,132.63,0.053052,0.18425,3.67,0.001835,0.18396,2.34,0.00117
0.18451,113.02,0.045208,0.18392,131.32,0.052528,0.18515,3.67,0.001468,0.18486,2.22,0.000888
0.18531,112.74,0.045096,0.18482,126.38,0.037914,0.18595,3.67,0.001468,0.18576,2.16,0.000864
0.18611,112.65,0.04506,0.18562,125.32,0.050128,0.18675,3.63,0.001452,0.18666,2.07,0.000828
0.18691,112.41,0.044964,0.18642,124.1,0.04964,0.18755,3.52,0.00176,0.18746,1.99,0.000995
0.18771,112.2,0.04488,0.18722,123.02,0.036906,0.18845,3.52,0.001408,0.18836,2.08,0.00104
0.18851,110.82,0.044328,0.18792,120.83,0.048332,0.18925,2.2,0.00088,0.18936,1.97,0.000788
0.18931,108.39,0.043356,0.18872,119.04,0.047616,0.19005,2.01,0.001005,0.19016,1.95,0.00078
0.19011,106.68,0.042672,0.18952,110.47,0.044188,0.19095,1.92,0.00096,0.19096,1.97,0.000788
0.19091,89.33,0.035732,0.19032,99.58,0.039832,0.19185,1.9,0.00095,0.19176,1.9,0.00076
0.19171,89.14,0.04457,0.19112,84.64,0.033856,0.19275,2.09,0.001045,0.19256,1.86,0.000744
0.19261,89.57,0.035828,0.19202,80.92,0.032368,0.19365,1.94,0.00097,0.19336,1.93,0.000772
0.19341,90.47,0.036188,0.19282,75.29,0.030116,0.19455,1.95,0.000975,0.19416,1.87,0.000748
0.19421,91.12,0.036448,0.19362,73.12,0.029248,0.19545,1.9,0.00076,0.19496,1.67,0.000668
0.19511,92.31,0.036924,0.19442,69.63,0.034815,0.19625,1.81,0.000724,0.19576,1.7,0.00068
0.19591,92.96,0.04648,0.19532,68.19,0.027276,0.19715,1.97,0.000788,0.19656,1.69,0.000676
0.19681,94.02,0.037608,0.19612,67.13,0.033565,0.19785,1.83,0.000915,0.19736,1.65,0.00066
0.19771,94.87,0.037948,0.19702,64.55,0.032275,0.19875,1.96,0.000588,0.19816,1.69,0.000676
0.19861,95.74,0.038296,0.19792,63.37,0.031685,0.19945,1.75,0.000875,0.19896,1.57,0.000628
0.19951,96.78,0.038712,0.19882,62.48,0.03124,0.20035,1.82,0.000728,0.19966,1.47,
0.20031,97.6,0.0488,0.19972,61.2,0.02448,0.20115,1.71,0.000684,,,
0.20121,98.47,0.039388,0.20062,60.7,0.02428,0.20195,1.68,0.000672,,,
0.20201,99.26,0.039704,0.20142,59.55,0.02382,0.20275,1.57,0.000628,,,
0.20281,99.94,0.039976,0.20222,58.95,0.02358,0.20355,1.68,0.000672,,,
0.20361,100.48,0.040192,0.20302,57.79,0.023116,0.20435,1.7,0.00085,,,
0.20441,101.29,0.040516,0.20382,55.93,0.027965,0.20515,1.7,0.00085,,,
0.20521,101.86,0.040744,0.20472,31.52,0.009456,0.20605,1.82,0.000728,,,
0.20601,102.65,0.04106,0.20552,30.02,0.012008,0.20685,1.71,0.000684,,,
0.20681,103.5,0.0414,0.20632,29.8,0.01192,0.20775,1.67,0.000835,,,
0.20761,103.95,0.04158,0.20712,29.83,0.011932,0.20865,1.68,0.000672,,,
0.20841,104.65,0.04186,0.20792,29.63,0.011852,0.20945,1.57,0.000785,,,
0.20921,105.36,0.042144,0.20872,29.73,0.011892,0.21045,1.51,0.000604,,,
0.21001,106.05,0.04242,0.20952,29.54,0.01477,0.21125,1.49,0.000745,,,
0.21091,106.94,0.042776,0.21042,29.41,0.011764,0.21215,1.49,0.000596,,,
0.21171,107.65,0.04306,0.21122,29.33,0.011732,0.21295,1.51,0.000755,,,
0.21261,108.21,0.043284,0.21202,29.44,0.011776,0.21385,1.46,0.000584,,,
0.21341,109,0.0545,0.21292,29.19,0.011676,0.21465,1.45,0.00058,,,
0.21431,109.41,0.054705,0.21382,29.15,0.01166,0.21545,1.36,0.000544,,,
0.21521,110.03,0.044012,0.21462,29.1,0.01455,0.21625,1.41,0.000423,,,
0.21611,110.64,0.05532,0.21552,29.07,0.014535,0.21705,1.4,0.00056,,,
0.21701,111.37,0.044548,0.21642,28.77,0.014385,0.21785,1.36,0.000544,,,
0.21781,111.83,0.044732,0.21732,28.28,0.011312,0.21865,1.36,0.000544,,,
0.21861,112.34,0.044936,0.21822,28.23,0.011292,0.21945,1.33,0.000532,,,
0.21941,112.81,0.045124,0.21902,27.82,0.011128,0.22025,1.21,0.000484,,,
0.22021,113.24,0.045296,0.21982,27.52,0.011008,0.22105,1.18,0.000472,,,
0.22101,113.59,0.045436,0.22062,27.39,0.010956,0.22185,1.26,0.000504,,,
0.22181,113.77,0.045508,0.22142,27.41,0.010964,0.22265,1.45,0.00058,,,
0.22261,113.95,0.04558,0.22222,21.9,0.00876,0.22355,1.46,0.000584,,,
0.22341,114.02,0.045608,0.22302,21.41,0.008564,0.22435,1.14,0.00057,,,
0.22421,114.17,0.045668,0.22382,21.05,0.00842,0.22525,1.28,0.00064,,,
0.22501,114.38,0.045752,0.22462,20.58,0.01029,0.22615,1.28,0.000512,,,
0.22591,114.57,0.045828,0.22552,20.38,0.008152,0.22705,1.15,0.00046,,,
0.22671,114.46,0.045784,0.22632,19.93,0.007972,0.22745,1.04,,,,
0.22751,114.61,0.045844,0.22712,19.5,0.0078,,,,,,
0.22841,113.67,0.045468,0.22792,18.62,0.007448,,,,,,
0.22921,93.55,0.03742,0.22882,18.35,0.00734,,,,,,
0.23011,84.55,0.03382,0.22962,18,0.0072,,,,,,
0.23101,73.54,0.029416,0.23052,17.72,0.00886,,,,,,
0.23181,68.79,0.034395,0.23142,17.27,0.006908,,,,,,
0.23271,58.15,0.029075,0.23232,16.9,0.00676,,,,,,
0.23361,55.87,0.022348,0.23312,16.67,0.008335,,,,,,
0.23451,54.03,0.021612,0.23402,16.46,0.006584,,,,,,
0.23531,52.46,0.02623,0.23482,16.31,0.006524,,,,,,
0.23621,51.62,0.015486,0.23572,16.11,0.006444,,,,,,
0.23691,51.12,0.02556,0.23652,15.76,0.006304,,,,,,
0.23781,49.69,0.019876,0.23732,15.7,0.00628,,,,,,
0.23861,47.16,0.018864,0.23812,15.46,0.006184,,,,,,
0.23941,41.84,0.016736,0.23892,15.63,0.004689,,,,,,
0.24021,39.05,0.01562,0.23972,15.12,0.006048,,,,,,
0.24101,37.91,0.015164,0.24062,15.15,0.00606,,,,,,
0.24181,37.07,0.014828,0.24142,14.91,0.005964,,,,,,
0.24261,36.17,0.018085,0.24222,14.77,0.005908,,,,,,
0.24351,35.35,0.01414,0.24302,14.57,0.007285,,,,,,
0.24431,33.9,0.01356,0.24392,14.29,0.005716,,,,,,
0.24511,32.65,0.01306,0.24472,14.42,0.00721,,,,,,
0.24601,31.37,0.012548,0.24562,14.01,0.005604,,,,,,
0.24681,30.48,0.01524,0.24642,14.09,0.005636,,,,,,
0.24771,29.81,0.011924,0.24732,13.79,0.005516,,,,,,
0.24861,28.9,0.01156,0.24822,13.61,0.005444,,,,,,
0.24951,28.13,0.011252,0.24902,13.4,0.0067,,,,,,
0.25031,27.67,0.013835,0.24992,13.35,0.00534,,,,,,
0.25121,27.32,0.010928,0.25072,13.09,0.006545,,,,,,
0.25211,26.84,0.010736,0.25172,13.07,0.006535,,,,,,
0.25291,26.11,0.010444,0.25262,12.85,0.00514,,,,,,
0.25371,25.63,0.010252,0.25332,12.66,0.005064,,,,,,
0.25451,25.11,0.010044,0.25422,12.87,0.005148,,,,,,
0.25531,24.99,0.009996,0.25492,12.45,0.00498,,,,,,
0.25611,24.58,0.009832,0.25572,12.55,0.00502,,,,,,
0.25691,21.8,0.00872,0.25662,12.1,0.00484,,,,,,
0.25771,20.48,0.008192,0.25732,12.25,0.006125,,,,,,
0.25851,20,0.008,0.25822,12.06,0.004824,,,,,,
0.25941,19.48,0.007792,0.25902,11.97,0.004788,,,,,,
0.26021,18.29,0.007316,0.25982,11.75,0.0047,,,,,,
0.26101,17.56,0.007024,0.26062,11.45,0.00458,,,,,,
0.26181,17.43,0.008715,0.26142,11.46,0.004584,,,,,,
0.26271,17.25,0.0069,0.26232,11.27,0.004508,,,,,,
0.26351,17.06,0.00853,0.26312,11.21,0.004484,,,,,,
0.26441,16.9,0.00676,0.26402,10.97,0.004388,,,,,,
0.26531,16.82,0.006728,0.26482,11.06,0.00553,,,,,,
0.26621,16.88,0.006752,0.26572,10.92,0.00546,,,,,,
0.26701,16.61,0.008305,0.26662,10.65,0.00426,,,,,,
0.26791,16.48,0.006592,0.26742,10.63,0.005315,,,,,,
0.26881,16.11,0.006444,0.26832,10.31,0.005155,,,,,,
0.26961,15.93,0.006372,0.26922,10.25,0.0041,,,,,,
0.27041,15.78,0.006312,0.27002,10.13,0.004052,,,,,,
0.27121,15.83,0.006332,0.27082,9.98,0.003992,,,,,,
0.27201,15.64,0.006256,0.27162,9.87,0.003948,,,,,,
0.27281,15.35,0.00614,0.27242,9.76,0.003904,,,,,,
0.27361,15.39,0.006156,0.27322,9.59,0.003836,,,,,,
0.27441,15.34,0.006136,0.27402,9.54,0.003816,,,,,,
0.27521,15.23,0.007615,0.27482,9.48,0.003792,,,,,,
0.27611,14.9,0.00596,0.27562,9.34,0.003736,,,,,,
0.27691,15.11,0.006044,0.27642,9.29,0.003716,,,,,,
0.27781,15.05,0.00602,0.27722,9.13,0.003652,,,,,,
0.27861,15.02,0.006008,0.27802,9.07,0.003628,,,,,,
0.27941,14.85,0.00594,0.27882,8.88,0.003552,,,,,,
0.28021,14.9,0.00596,0.27972,8.88,0.003552,,,,,,
0.28111,14.9,0.00596,0.28052,8.54,0.00427,,,,,,
0.28201,14.67,0.005868,0.28142,8.62,0.00431,,,,,,
0.28291,14.63,0.005852,0.28232,8.45,0.00338,,,,,,
0.28381,14.63,0.005852,0.28322,8.46,0.003384,,,,,,
0.28461,14.73,0.007365,0.28412,8.45,0.00338,,,,,,
0.28551,14.32,0.005728,0.28502,8.3,0.00332,,,,,,
0.28631,14.1,0.00564,0.28582,8.25,0.0033,,,,,,
0.28711,14.08,0.005632,0.28662,8.17,0.003268,,,,,,
0.28791,14.07,0.005628,0.28742,8.08,0.003232,,,,,,
0.28871,13.99,0.005596,0.28822,8,0.004,,,,,,
0.28951,13.83,0.005532,0.28912,8.12,0.003248,,,,,,
0.29031,13.77,0.005508,0.28992,7.91,0.003164,,,,,,
0.29111,13.9,0.00695,0.29072,7.91,0.003164,,,,,,
0.29201,13.78,0.005512,0.29152,7.86,0.003144,,,,,,
0.29281,13.77,0.005508,0.29232,7.7,0.00308,,,,,,
0.29361,13.5,0.0054,0.29322,7.64,0.003056,,,,,,
0.29441,13.23,0.005292,0.29402,7.5,0.003,,,,,,
0.29531,12.34,0.004936,0.29482,7.74,0.003096,,,,,,
0.29611,11.82,0.004728,0.29562,7.62,0.003048,,,,,,
0.29691,11.44,0.00572,0.29642,7.52,0.00376,,,,,,
0.29781,11.14,0.004456,0.29732,7.61,0.003044,,,,,,
0.29871,10.2,0.00408,0.29822,7.43,0.002972,,,,,,
0.29961,9.8,0.00392,0.29902,7.38,0.00369,,,,,,
0.30051,9.98,0.003992,0.29992,7.38,0.002952,,,,,,
0.30131,9.86,0.00493,0.30082,7.22,0.00361,,,,,,
0.30221,9.75,0.0039,0.30172,7.18,0.002872,,,,,,
0.30301,9.79,0.003916,0.30252,7.07,0.002828,,,,,,
0.30381,9.52,0.003808,0.30332,6.92,0.00346,,,,,,
0.30461,9.47,0.003788,0.30422,6.9,0.00276,,,,,,
0.30541,9.23,0.003692,0.30502,7.01,0.002804,,,,,,
0.30621,8.83,0.003532,0.30582,6.88,0.002752,,,,,,
0.30701,8.68,0.003472,0.30662,6.89,0.002756,,,,,,
0.30781,8.42,0.003368,0.30732,6.76,0.00338,,,,,,
0.30861,8.28,0.003312,0.30822,6.75,0.0027,,,,,,
0.30951,8.13,0.003252,0.30912,6.83,0.002049,,,,,,
0.31021,8.09,0.004045,0.30982,6.54,0.002616,,,,,,
0.31111,8.04,0.003216,0.31062,6.43,0.002572,,,,,,
0.31191,7.96,0.003184,0.31142,6.34,0.002536,,,,,,
0.31271,7.89,0.003945,0.31222,6.38,0.002552,,,,,,
0.31361,7.82,0.003128,0.31302,5.86,0.002344,,,,,,
0.31451,7.73,0.003092,0.31392,6,0.0024,,,,,,
0.31531,7.78,0.00389,0.31472,6.08,0.00304,,,,,,
0.31621,7.25,0.0029,0.31562,5.95,0.00238,,,,,,
0.31711,7.14,0.002856,0.31642,5.96,0.002384,,,,,,
0.31801,7.29,0.002916,0.31732,5.79,0.002895,,,,,,
0.31881,7.06,0.002824,0.31832,5.69,0.002276,,,,,,
0.31961,7.02,0.00351,0.31912,5.74,0.002296,,,,,,
0.32051,6.84,0.002736,0.31992,5.69,0.002845,,,,,,
0.32131,6.87,0.002748,0.32082,5.61,0.002244,,,,,,
0.32211,6.77,0.002708,0.32162,5.59,0.002236,,,,,,
0.32291,6.75,0.002025,0.32242,5.46,0.002184,,,,,,
0.32361,6.58,0.00329,0.32322,5.54,0.002216,,,,,,
0.32451,6.53,0.002612,0.32402,5.25,0.0021,,,,,,
0.32531,6.69,0.002676,0.32482,5.24,0.002096,,,,,,
0.32611,6.55,0.00262,0.32562,5.26,0.002104,,,,,,
0.32691,6.51,0.002604,0.32632,5.26,0.00263,,,,,,
0.32781,6.43,0.002572,0.32722,5.13,0.002052,,,,,,
0.32861,6.3,0.00252,0.32802,5.05,0.00202,,,,,,
0.32941,6.01,0.002404,0.32882,5.08,0.002032,,,,,,
0.33021,5.9,0.00295,0.32962,4.93,0.001972,,,,,,
0.33111,5.89,0.002356,0.33042,4.86,0.001944,,,,,,
0.33191,5.97,0.002985,0.33132,4.78,0.001912,,,,,,
0.33291,5.67,0.002268,0.33212,4.93,0.001972,,,,,,
0.33371,5.93,0.002372,0.33302,4.87,0.001948,,,,,,
0.33451,5.87,0.002935,0.33392,4.79,0.001916,,,,,,
0.33541,5.81,0.002905,0.33472,4.76,0.00238,,,,,,
0.33631,5.75,0.002875,0.33562,4.66,0.001864,,,,,,
0.33721,5.84,0.002336,0.33652,4.59,0.001836,,,,,,
0.33801,5.62,0.002248,0.33732,4.43,0.001772,,,,,,
0.33881,5.63,0.002252,0.33812,4.38,0.00219,,,,,,
0.33961,5.85,0.00234,0.33892,4.48,0.001792,,,,,,
0.34041,5.73,0.002292,0.33972,4.41,0.002205,,,,,,
0.34121,5.56,0.002224,0.34062,4.44,0.001776,,,,,,
0.34201,5.57,0.002228,0.34142,4.25,0.0017,,,,,,
0.34281,5.35,0.00214,0.34222,4.25,0.0017,,,,,,
0.34361,5.35,0.00214,0.34302,4.33,0.001732,,,,,,
0.34441,5.58,0.002232,0.34382,4.21,0.001684,,,,,,
0.34521,5.34,0.002136,0.34462,4.13,0.001652,,,,,,
0.34601,5.37,0.002148,0.34542,4.17,0.001668,,,,,,
0.34681,5.11,0.002555,0.34622,4.01,0.002005,,,,,,
0.34771,5.25,0.0021,0.34712,4.01,0.001604,,,,,,
0.34851,5.48,0.00274,0.34802,3.84,0.001536,,,,,,
0.34941,5.29,0.002116,0.34882,3.76,0.001504,,,,,,
0.35031,5.16,0.002064,0.34972,3.9,0.00156,,,,,,
0.35121,5.2,0.00208,0.35052,3.81,0.001905,,,,,,
0.35201,5.12,0.00256,0.35142,3.88,0.00194,,,,,,
0.35291,5.23,0.002092,0.35232,3.79,0.001516,,,,,,
0.35371,4.99,0.001996,0.35312,3.82,0.00191,,,,,,
0.35451,4.98,0.001992,0.35402,3.7,0.00148,,,,,,
0.35531,5.03,0.002012,0.35482,3.7,0.00148,,,,,,
0.35611,5.04,0.002016,0.35562,3.71,0.001484,,,,,,
0.35691,4.91,0.001964,0.35642,3.52,0.001408,,,,,,
0.35771,4.97,0.001988,0.35722,3.58,0.001432,,,,,,
0.35851,4.95,0.00198,0.35802,3.5,0.0014,,,,,,
0.35931,4.81,0.001924,0.35882,3.38,0.001352,,,,,,
0.36011,4.78,0.001912,0.35962,3.63,0.001452,,,,,,
0.36091,4.6,0.00184,0.36042,3.43,0.001372,,,,,,
0.36171,4.82,0.001928,0.36122,3.52,0.001408,,,,,,
0.36251,4.83,0.001932,0.36202,3.25,0.0013,,,,,,
0.36341,4.82,0.001928,0.36282,3.4,0.0017,,,,,,
0.36421,4.7,0.00188,0.36372,3.23,0.001292,,,,,,
0.36501,4.51,0.002255,0.36452,3.31,0.001655,,,,,,
0.36591,4.65,0.00186,0.36542,3.32,0.001328,,,,,,
0.36681,4.66,0.001864,0.36632,3.28,0.001312,,,,,,
0.36761,4.58,0.00229,0.36722,3.21,0.001284,,,,,,
0.36851,4.38,0.001752,0.36802,3.19,0.001595,,,,,,
0.36931,4.3,0.00215,0.36892,3.15,0.001575,,,,,,
0.37021,4.44,0.001776,0.36982,2.85,0.00114,,,,,,
0.37101,4.29,0.001716,0.37062,3.21,0.001605,,,,,,
0.37181,4.11,0.001644,0.37152,3.07,0.001228,,,,,,
0.37251,4.21,0.002105,0.37232,3.05,0.00122,,,,,,
0.37341,4.34,0.001736,0.37312,3.05,0.00122,,,,,,
0.37421,4.38,0.001752,0.37392,2.86,0.001144,,,,,,
0.37501,4.13,0.001239,0.37482,2.82,0.001128,,,,,,
0.37571,4.18,0.001672,0.37552,2.88,0.00144,,,,,,
0.37651,4.18,0.00209,0.37642,2.75,0.0011,,,,,,
0.37741,3.99,0.001596,0.37722,2.65,0.00106,,,,,,
0.37821,2.87,0.000861,0.37802,2.48,0.000992,,,,,,
0.37901,2.85,0.00114,0.37872,2.5,0.001,,,,,,
0.37981,2.59,0.001036,0.37952,2.48,0.000992,,,,,,
0.38061,2.74,0.001096,0.38042,2.42,0.00121,,,,,,
0.38141,2.34,0.00117,0.38142,2.47,0.001235,,,,,,
0.38231,2.2,0.00088,0.38232,2.27,0.000908,,,,,,
0.38311,2.1,0.00105,0.38312,2.36,0.000944,,,,,,
0.38401,1.88,0.00094,0.38392,2.41,0.001205,,,,,,
0.38501,2.03,0.000812,0.38482,2.2,0.0011,,,,,,
0.38581,2.02,0.00101,0.38572,2.28,0.000912,,,,,,
0.38671,1.91,0.000764,0.38662,2.29,0.000916,,,,,,
0.38751,2.01,0.000804,0.38742,2.21,0.000884,,,,,,
0.38831,2.04,0.00102,0.38822,2.19,0.000876,,,,,,
0.38921,1.95,0.00078,0.38912,2.23,0.000892,,,,,,
0.39001,1.86,0.000744,0.38982,2.04,0.000816,,,,,,
0.39081,1.83,0.000732,0.39062,2.22,0.00111,,,,,,
0.39151,1.75,0.0007,0.39152,2.14,0.000856,,,,,,
0.39231,1.94,0.00097,0.39232,2.23,0.000892,,,,,,
0.39321,1.77,0.000708,0.39312,2.06,0.000824,,,,,,
0.39401,1.77,0.000708,0.39382,1.97,0.000788,,,,,,
0.39481,1.56,0.000624,0.39472,1.99,0.000796,,,,,,
0.39561,1.74,0.000696,0.39552,1.98,0.000792,,,,,,
0.39641,1.67,0.000668,0.39632,2.22,0.000888,,,,,,
0.39721,1.6,0.00064,0.39712,1.99,0.000995,,,,,,
0.39811,1.54,0.00077,0.39802,2.09,0.000836,,,,,,
0.39901,1.55,0.00062,0.39882,1.99,0.000796,,,,,,
0.39991,1.55,0.00062,0.39962,2.06,0.00103,,,,,,
0.40071,1.57,0.000785,0.40052,1.93,0.000965,,,,,,
0.40161,1.45,0.000725,0.40142,1.77,0.000708,,,,,,
0.40251,1.59,0.000636,0.40232,1.92,0.000768,,,,,,
0.40341,1.64,0.000656,0.40312,1.94,0.00097,,,,,,
0.40421,1.24,0.000496,0.40402,1.89,0.000756,,,,,,
0.40501,1.5,0.0006,0.40482,1.89,0.000756,,,,,,
0.40571,1.42,0.000568,0.40572,1.82,0.000728,,,,,,
0.40651,1.35,0.00054,0.40642,1.86,0.000744,,,,,,
0.40741,1.37,0.000548,0.40732,1.82,0.000728,,,,,,
0.40831,1.41,0.000564,0.40802,1.79,0.000716,,,,,,
0.40911,1.42,0.000568,0.40882,1.77,0.000885,,,,,,
0.40981,1.57,0.000628,0.40972,1.75,0.0007,,,,,,
0.41061,1.42,0.00071,0.41052,1.9,0.00076,,,,,,
0.41151,1.59,0.000159,0.41132,1.78,0.000712,,,,,,
,,,0.41212,1.8,0.00072,,,,,,
,,,0.41292,1.88,0.000752,,,,,,
,,,0.41372,1.82,0.000728,,,,,,
,,,0.41452,1.94,0.00097,,,,,,
,,,0.41542,1.83,0.000732,,,,,,
,,,0.41622,1.83,0.000732,,,,,,
,,,0.41712,1.74,0.00087,,,,,,
,,,0.41802,1.6,0.00064,,,,,,
,,,0.41882,1.75,0.000875,,,,,,
,,,0.41972,1.67,0.000835,,,,,,
,,,0.42062,1.72,0.000688,,,,,,
,,,0.42142,1.6,0.0008,,,,,,
,,,0.42232,1.71,0.000684,,,,,,
,,,0.42302,1.61,0.000644,,,,,,
,,,0.42382,1.69,0.000676,,,,,,
,,,0.42462,1.4,0.00056,,,,,,
,,,0.42542,1.56,0.000624,,,,,,
,,,0.42632,1.53,0.000612,,,,,,
,,,0.42712,1.55,0.00062,,,,,,
,,,0.42792,1.5,0.0006,,,,,,
,,,0.42872,1.53,0.000612,,,,,,
,,,0.42942,1.3,,,,,,,